VAMAS Surface Chemical Analysis Standard Data Transfer Format 1988 May 4
Not specified
MI-600-BE9240AA
DESKTOP-MI6NA2R\kratos
20200909_AK_PVK_UPS.experiment
4
Casa Info Follows CasaXPS Version 2.3.22PR1.0
0
SourceAnalyserAngle: 54.735600 d
CasaRowLabel:AK_control
NORM
REGULAR
9
4
Index
d
PositionX [mm]
n
PositionY [mm]
n
PositionZ [mm]
n
0
0
0
0
9
wide
AK_control
2020
9
9
13
28
32
2
41
Casa Info Follows
0
0
0
0
Creation
Created by : DESKTOP-MI6NA2R\kratos
Date created : 09/09/2020 13:28
Computer : DESKTOP-MI6NA2R
Location
Location ID : AK_control
Sample : AK_control
Description : (25.507,20.108,-3.724)mm
Tilt : 0.00
Charge Neutraliser : Off
Settings
Excitation
Mode : XPS - monochromatic
Tuning : Spectroscopy
Emission current : 15.00mA
Anode library : Al
ESCA modes
Collimation : Slot
Lens : Hybrid
Resolution : 160.00
Scan
Deflection : (0.000, 0.000)mm
wide : 286.690-1491.690eV, Sweeps 1
Start : 286.690eV
End : 1491.690eV
Centre : 889.190eV
Width : 1205.000eV
Step size : 1.000eV
Number Steps : 1205
Dwell time : 100ms
Sweep time : 120s
Sweeps : 1
Instrument Conditions
Work function : -4.50
Acquisition Conditions
X-ray Power : 225.00W
XPS
1
25.5065
20.1084
-3.72434
Al (mono)
1486.69
225
1e+037
1e+037
1e+037
1e+037
FAT
160
1e+037
-4.5
1e+037
1e+037
1e+037
1e+037
1e+037
wide

-1
Kinetic energy
eV
286.69
1
2
Intensity
d
Transmission
d
pulse counting
0.0995025
1
0
1e+037
1e+037
1e+037
0
2412
0
10902
12.1975
15.5208
2808
12.1975
2885
12.2024
2916
12.2074
2948
12.2124
2868
12.2174
2915
12.2223
2844
12.2273
2977
12.2323
2996
12.2373
2937
12.2422
2853
12.2472
2830
12.2522
2878
12.2572
2910
12.2621
2937
12.2671
2909
12.2721
2943
12.2771
2961
12.282
2987
12.287
2994
12.292
3067
12.297
3011
12.3019
2981
12.3069
2938
12.3119
2938
12.3141
3114
12.3151
3038
12.3161
2998
12.3171
3016
12.3181
3033
12.3191
3046
12.3201
3037
12.3211
3001
12.3221
3063
12.3231
3081
12.3241
3075
12.3251
3095
12.3261
3092
12.3271
3097
12.3281
3071
12.3291
3192
12.3301
3171
12.3311
3018
12.3321
3078
12.3331
3136
12.3341
3148
12.3351
3099
12.3361
3116
12.3371
3146
12.3381
3199
12.3391
3205
12.3401
3202
12.3411
3187
12.3421
3174
12.3431
3098
12.3441
3140
12.3451
3199
12.3461
3191
12.3471
3190
12.3481
3195
12.3491
3199
12.3501
3210
12.3511
3203
12.3521
3308
12.3531
3214
12.3541
3167
12.3551
3281
12.3561
3249
12.3571
3200
12.3581
3282
12.3592
3208
12.3602
3228
12.3612
3256
12.3622
3274
12.3632
3356
12.3649
3306
12.367
3348
12.3692
3357
12.3713
3301
12.3734
3286
12.3755
3333
12.3776
3426
12.3797
3465
12.3819
3449
12.384
3384
12.3861
3423
12.3882
3473
12.3903
3348
12.3924
3409
12.3946
3333
12.3967
3390
12.3988
3344
12.4009
3405
12.403
3356
12.4051
3373
12.4073
3398
12.4094
3412
12.4115
3394
12.4136
3333
12.4157
3335
12.4178
3363
12.42
3374
12.4221
3395
12.4242
3438
12.4263
3355
12.4284
3396
12.4305
3416
12.4327
3417
12.4348
3378
12.4369
3418
12.439
3484
12.4411
3467
12.4432
3459
12.4454
3453
12.4475
3482
12.4496
3575
12.4517
3437
12.4538
3456
12.4559
3537
12.4581
3533
12.4602
3482
12.4623
3473
12.4644
3516
12.4665
3457
12.4686
3430
12.4708
3485
12.473
3622
12.4752
3685
12.4773
3595
12.4795
3571
12.4817
3543
12.4839
3459
12.486
3471
12.4882
3475
12.4904
3469
12.4926
3439
12.4947
3419
12.4969
3359
12.4991
3461
12.5013
3477
12.5034
3482
12.5056
3447
12.5078
3464
12.51
3442
12.5121
3348
12.5143
3315
12.5165
3374
12.5187
3382
12.5208
3276
12.523
3354
12.5252
3347
12.5274
3187
12.5295
3114
12.5317
3133
12.5339
3026
12.5361
3207
12.5382
3238
12.5404
3269
12.5426
3187
12.5448
3123
12.5469
3099
12.5491
3072
12.5513
2941
12.5535
2994
12.5556
3112
12.5578
3018
12.56
3010
12.5622
3060
12.5643
3039
12.5665
3145
12.5687
3070
12.5709
3062
12.573
3103
12.5752
3116
12.5774
3185
12.5815
3217
12.5864
3184
12.5913
3197
12.5962
3212
12.6011
3225
12.606
3235
12.6109
3279
12.6158
3233
12.6207
3279
12.6256
3379
12.6305
3380
12.6354
3292
12.6403
3401
12.6452
3419
12.6501
3370
12.655
3416
12.6599
3396
12.6648
3369
12.6697
3427
12.6746
3517
12.6795
3468
12.6844
3495
12.6893
3524
12.6942
3555
12.6991
3521
12.704
3602
12.7089
3541
12.7138
3629
12.7187
3638
12.7236
3675
12.7285
3701
12.7334
3731
12.7383
3782
12.7432
3900
12.7481
3765
12.753
3664
12.7579
3793
12.7628
3814
12.7677
3820
12.7726
3787
12.7775
3883
12.7824
3863
12.7873
3786
12.7922
4059
12.7971
4515
12.802
4588
12.8069
4413
12.8118
4432
12.8167
4318
12.8216
4084
12.8237
3654
12.8247
3345
12.8256
3207
12.8265
3121
12.8274
3099
12.8284
3543
12.8293
4022
12.8302
3705
12.8311
3260
12.8321
3123
12.833
2827
12.8339
2718
12.8348
2689
12.8358
2618
12.8367
2601
12.8376
2638
12.8386
2680
12.8395
2590
12.8404
2538
12.8413
2591
12.8423
2550
12.8432
2569
12.8441
2640
12.845
2669
12.846
2616
12.8469
2635
12.8478
2657
12.8487
2659
12.8497
2702
12.8506
2660
12.8515
2770
12.8524
2706
12.8534
2603
12.8543
2712
12.8552
2711
12.8562
2621
12.8571
2729
12.858
2638
12.8589
2654
12.8599
2701
12.8608
2729
12.8617
2831
12.8626
3011
12.8636
3224
12.8645
3295
12.8654
3182
12.8663
2965
12.8673
2870
12.8682
2733
12.8691
2715
12.872
2737
12.8759
2590
12.8797
2571
12.8835
2512
12.8873
2453
12.8912
2482
12.895
2574
12.8988
2619
12.9026
2657
12.9065
2591
12.9103
2564
12.9141
2534
12.9179
2598
12.9218
2565
12.9256
2558
12.9294
2565
12.9332
2492
12.9371
2498
12.9409
2542
12.9447
2511
12.9485
2587
12.9524
2664
12.9562
2592
12.96
2462
12.9638
2572
12.9677
2578
12.9715
2623
12.9753
2599
12.9791
2647
12.9829
2650
12.9868
2723
12.9906
2781
12.9944
2706
12.9982
2746
13.0021
2693
13.0059
2701
13.0097
2681
13.0135
2644
13.0174
2651
13.0212
2646
13.025
2694
13.0288
2631
13.0327
2605
13.0365
2608
13.0403
2589
13.0441
2712
13.048
2754
13.0518
2920
13.0556
3153
13.0594
3507
13.0631
3739
13.0666
3525
13.0702
3175
13.0737
2779
13.0772
2531
13.0808
2382
13.0843
2329
13.0879
2270
13.0914
2242
13.095
2221
13.0985
2238
13.102
2280
13.1056
2199
13.1091
2167
13.1127
2236
13.1162
2222
13.1198
2185
13.1233
2143
13.1268
2168
13.1304
2146
13.1339
2189
13.1375
2161
13.141
2206
13.1446
2280
13.1481
2227
13.1516
2153
13.1552
2254
13.1587
2203
13.1623
2156
13.1658
2182
13.1694
2180
13.1729
2244
13.1764
2211
13.18
2235
13.1835
2228
13.1871
2180
13.1906
2238
13.1942
2203
13.1977
2260
13.2012
2209
13.2048
2211
13.2083
2190
13.2119
2210
13.2154
2182
13.219
2233
13.2225
2224
13.226
2253
13.2296
2283
13.2331
2262
13.2367
2263
13.2382
2237
13.2389
2223
13.2397
2294
13.2404
2301
13.2411
2305
13.2418
2284
13.2425
2256
13.2432
2324
13.2439
2341
13.2446
2289
13.2453
2309
13.246
2312
13.2467
2322
13.2474
2364
13.2481
2362
13.2488
2388
13.2495
2306
13.2502
2326
13.2509
2367
13.2516
2325
13.2523
2357
13.253
2369
13.2537
2415
13.2544
2349
13.2551
2361
13.2558
2316
13.2565
2337
13.2572
2406
13.2579
2396
13.2586
2468
13.2593
2373
13.26
2367
13.2607
2379
13.2614
2315
13.2621
2426
13.2628
2379
13.2635
2448
13.2642
2422
13.2649
2438
13.2656
2395
13.2666
2387
13.2677
2390
13.2688
2404
13.27
2376
13.2711
2383
13.2722
2415
13.2733
2426
13.2744
2508
13.2755
2504
13.2767
2568
13.2778
2495
13.2789
2414
13.28
2451
13.2811
2422
13.2822
2472
13.2834
2495
13.2845
2530
13.2856
2549
13.2867
2536
13.2878
2444
13.2889
2568
13.29
2590
13.2912
2567
13.2923
2514
13.2934
2488
13.2945
2489
13.2956
2527
13.2967
2555
13.2979
2552
13.299
2521
13.3001
2611
13.3012
2533
13.3023
2542
13.3034
2588
13.3046
2563
13.3057
2518
13.3068
2565
13.3079
2579
13.309
2654
13.3101
2653
13.3113
2510
13.3124
2596
13.3135
2538
13.3146
2554
13.3157
2527
13.3168
2580
13.318
2589
13.3191
2583
13.3202
2619
13.3213
2627
13.3224
2658
13.3235
2579
13.3246
2643
13.3258
2728
13.3269
2676
13.328
2652
13.3291
2556
13.3302
2558
13.3313
2636
13.3325
2609
13.3361
2671
13.3408
2651
13.3455
2632
13.3503
2702
13.355
2659
13.3598
2593
13.3645
2568
13.3692
2641
13.374
2696
13.3787
2671
13.3834
2700
13.3882
2638
13.3929
2648
13.3976
2683
13.4024
2651
13.4071
2698
13.4118
2613
13.4166
2760
13.4213
2694
13.426
2678
13.4308
2686
13.4355
2724
13.4403
2743
13.445
2766
13.4497
2766
13.4545
2724
13.4592
2737
13.4639
2714
13.4687
2699
13.4734
2738
13.4781
2745
13.4829
2784
13.4876
2803
13.4923
2854
13.4971
2806
13.5018
2817
13.5065
2836
13.5113
2825
13.516
2812
13.5208
2801
13.5255
2788
13.5302
2814
13.535
2985
13.5397
2882
13.5444
2940
13.5492
2947
13.5539
2884
13.5586
2973
13.5634
2996
13.5681
3003
13.57
3005
13.5707
2956
13.5713
3006
13.572
3097
13.5726
3093
13.5733
3117
13.5739
3133
13.5746
3107
13.5752
3127
13.5759
3173
13.5765
3317
13.5772
3289
13.5778
3322
13.5785
3344
13.5791
3313
13.5798
3430
13.5804
3331
13.5811
3372
13.5817
3496
13.5824
3523
13.583
3446
13.5837
3568
13.5844
3619
13.585
3641
13.5857
3633
13.5863
3710
13.587
3790
13.5876
3938
13.5883
3972
13.5889
4124
13.5896
4112
13.5902
4075
13.5909
4012
13.5915
3915
13.5922
3749
13.5928
3669
13.5935
3503
13.5941
3467
13.5948
3485
13.5954
3616
13.5961
3612
13.5967
3743
13.5974
4225
13.598
6911
13.5987
10415
13.5993
6384
13.6
3140
13.6006
2646
13.6013
2458
13.6019
2303
13.6026
2216
13.6032
2268
13.6039
2221
13.6045
2442
13.6052
4455
13.6058
10642
13.6065
10902
13.6071
3557
13.6078
1650
13.6084
1327
13.6118
1280
13.6164
1198
13.621
1134
13.6255
1118
13.6301
1144
13.6347
1122
13.6393
1106
13.6439
1129
13.6484
1104
13.653
1145
13.6576
1147
13.6622
1101
13.6668
1088
13.6713
1089
13.6759
1122
13.6805
1102
13.6851
1153
13.6897
1091
13.6942
1084
13.6988
1066
13.7034
1077
13.708
1094
13.7126
1079
13.7171
1099
13.7217
1075
13.7263
1075
13.7309
1061
13.7354
1062
13.74
1105
13.7446
1112
13.7492
1090
13.7538
1090
13.7583
1107
13.7629
1086
13.7675
1087
13.7721
1108
13.7767
1120
13.7812
1100
13.7858
1115
13.7904
1110
13.7937
1113
13.7963
1113
13.799
1166
13.8016
1111
13.8043
1135
13.807
1171
13.8096
1158
13.8123
1181
13.8149
1124
13.8176
1157
13.8202
1174
13.8229
1127
13.8256
1103
13.8282
1152
13.8309
1135
13.8335
1174
13.8362
1217
13.8389
1169
13.8415
1138
13.8442
1164
13.8468
1171
13.8495
1207
13.8522
1182
13.8548
1193
13.8575
1181
13.8601
1190
13.8628
1226
13.8655
1175
13.8681
1164
13.8708
1205
13.8734
1226
13.8761
1199
13.8787
1194
13.8814
1264
13.8841
1136
13.8867
1165
13.8894
1243
13.892
1250
13.8947
1215
13.8974
1239
13.9
1217
13.9027
1248
13.9053
1244
13.908
1201
13.9107
1171
13.9133
1223
13.916
1236
13.9186
1211
13.9213
1236
13.924
1261
13.9266
1238
13.9293
1222
13.9319
1193
13.9346
1160
13.9373
1190
13.9399
1214
13.9426
1248
13.9452
1256
13.9479
1279
13.9505
1253
13.953
1263
13.9554
1231
13.9578
1264
13.9602
1286
13.9625
1284
13.9649
1280
13.9673
1229
13.9697
1228
13.9721
1231
13.9745
1268
13.9768
1296
13.9792
1330
13.9816
1303
13.984
1282
13.9864
1310
13.9887
1306
13.9911
1261
13.9935
1241
13.9959
1283
13.9983
1283
14.0007
1256
14.003
1280
14.0054
1371
14.0078
1340
14.0102
1347
14.0126
1327
14.0149
1276
14.0173
1309
14.0197
1355
14.0221
1348
14.0245
1335
14.0269
1305
14.0292
1301
14.0316
1338
14.034
1340
14.0364
1339
14.0388
1390
14.0411
1381
14.0435
1367
14.0459
1421
14.0476
1432
14.0489
1338
14.0503
1382
14.0516
1389
14.053
1415
14.0543
1358
14.0557
1392
14.057
1432
14.0584
1421
14.0597
1370
14.061
1397
14.0624
1471
14.0637
1523
14.0651
1511
14.0664
1402
14.0678
1427
14.0691
1521
14.0705
1502
14.0718
1540
14.0732
1568
14.0745
1565
14.0759
1539
14.0772
1567
14.0786
1541
14.0799
1543
14.0813
1552
14.0826
1504
14.084
1547
14.0853
1532
14.0867
1583
14.088
1583
14.0893
1598
14.0907
1628
14.092
1588
14.0934
1643
14.0947
1695
14.0961
1735
14.0974
1874
14.0988
2120
14.1001
2092
14.1015
2074
14.1028
1819
14.1042
1708
14.1055
1568
14.1069
1529
14.1082
1487
14.1096
1429
14.1109
1452
14.1123
1477
14.1136
1432
14.1164
1408
14.1198
1400
14.1233
1400
14.1267
1419
14.1301
1431
14.1336
1455
14.137
1442
14.1404
1478
14.1439
1597
14.1473
1813
14.1507
2012
14.1542
2252
14.1576
2135
14.1611
1778
14.1645
1480
14.1679
1292
14.1714
1190
14.1748
1118
14.1782
1044
14.1817
1003
14.1851
973
14.1885
965
14.192
1010
14.1954
1111
14.1988
1368
14.2023
1171
14.2057
929
14.2091
926
14.2126
925
14.216
873
14.2195
891
14.2229
865
14.2263
877
14.2298
910
14.2332
922
14.2366
963
14.2401
933
14.2435
916
14.2469
917
14.2504
939
14.2525
872
14.2541
863
14.2557
912
14.2573
928
14.2588
900
14.2604
915
14.262
924
14.2636
919
14.2651
938
14.2667
921
14.2683
947
14.2699
929
14.2715
957
14.273
938
14.2746
916
14.2762
921
14.2778
928
14.2794
948
14.2809
903
14.2825
913
14.2841
936
14.2857
919
14.2872
920
14.2888
916
14.2904
926
14.292
901
14.2936
935
14.2951
999
14.2967
986
14.2983
961
14.2999
936
14.3014
948
14.303
977
14.3046
947
14.3062
977
14.3078
988
14.3093
937
14.3109
908
14.3125
957
14.3141
970
14.3157
986
14.3172
975
14.3188
966
14.3204
969
14.322
977
14.3235
1003
14.3251
1026
14.3267
1078
14.3283
1008
14.3299
983
14.3314
1033
14.333
1015
14.3346
1007
14.3362
985
14.3377
996
14.3393
992
14.3409
988
14.3425
959
14.3441
1002
14.3456
1011
14.3472
1052
14.3488
1030
14.3504
1046
14.352
1064
14.3535
973
14.3551
1031
14.3567
1089
14.3583
1069
14.3598
1073
14.3614
1082
14.363
1055
14.3646
1095
14.3662
1069
14.3677
1091
14.3693
1048
14.3709
1062
14.3725
1033
14.374
1061
14.3756
1021
14.3772
1020
14.3788
1050
14.3804
1069
14.3819
1037
14.3835
1050
14.3851
1062
14.3867
1073
14.3883
1116
14.3898
1132
14.3914
1106
14.393
1093
14.397
1043
14.402
1100
14.4071
1068
14.4121
1082
14.4172
1093
14.4223
1141
14.4273
1232
14.4324
1180
14.4374
1113
14.4425
1140
14.4476
1225
14.4526
1165
14.4577
1113
14.4627
1095
14.4678
1176
14.4729
1143
14.4779
1141
14.483
1161
14.488
1090
14.4931
1119
14.4982
1176
14.5032
1152
14.5083
1131
14.5133
1138
14.5184
1163
14.5235
1177
14.5285
1169
14.5336
1175
14.5386
1164
14.5437
1134
14.5488
1149
14.5538
1168
14.5589
1195
14.564
1123
14.569
1218
14.5741
1229
14.5791
1182
14.5842
1222
14.5893
1185
14.5943
1185
14.5994
1211
14.6044
1275
14.6095
1246
14.6146
1218
14.6196
1248
14.6247
1197
14.6297
1235
14.6348
1208
14.6399
1206
14.6449
1235
14.6483
1203
14.651
1224
14.6536
1219
14.6563
1252
14.659
1186
14.6616
1228
14.6643
1272
14.6669
1225
14.6696
1234
14.6722
1270
14.6749
1242
14.6776
1271
14.6802
1264
14.6829
1309
14.6855
1268
14.6882
1310
14.6909
1287
14.6935
1248
14.6962
1221
14.6988
1236
14.7015
1301
14.7041
1333
14.7068
1336
14.7095
1276
14.7121
1280
14.7148
1296
14.7174
1335
14.7201
1312
14.7228
1331
14.7254
1336
14.7281
1390
14.7307
1343
14.7334
1399
14.7361
1284
14.7387
1392
14.7414
1414
14.744
1388
14.7467
1404
14.7493
1389
14.752
1361
14.7547
1394
14.7573
1365
14.76
1443
14.7626
1450
14.7653
1457
14.768
1487
14.7706
1472
14.7733
1505
14.7759
1417
14.7786
1461
14.7812
1450
14.7839
1439
14.7866
1499
14.7892
1554
14.7919
1408
14.7945
1513
14.7972
1612
14.7999
1664
14.8025
1748
14.8052
1717
14.8049
1629
14.8034
1495
14.8019
1509
14.8003
1515
14.7988
1547
14.7973
1503
14.7957
1499
14.7942
1580
14.7926
1529
14.7911
1566
14.7896
1558
14.788
1577
14.7865
1603
14.785
1625
14.7834
1592
14.7819
1638
14.7804
1699
14.7788
1727
14.7773
1754
14.7757
1811
14.7742
1800
14.7727
1770
14.7711
1829
14.7696
1878
14.7681
1970
14.7665
1948
14.765
1956
14.7635
1976
14.7619
1988
14.7604
1913
14.7588
1929
14.7573
1904
14.7558
1863
14.7542
1924
14.7527
1984
14.7512
1919
14.7496
1872
14.7481
1799
14.7466
1856
14.745
2063
14.7435
2661
14.7419
4437
14.7404
4134
14.7389
1955
14.7373
1751
14.7358
2707
14.7343
5059
14.7327
3982
14.7312
1455
14.7297
1104
14.7281
1036
14.7266
960
14.725
871
14.7235
889
14.722
880
14.7204
856
14.724
877
14.7299
885
14.7358
820
14.7417
912
14.7476
906
14.7535
947
14.7594
1023
14.7653
990
14.7712
867
14.7771
714
14.7831
607
14.789
593
14.7949
614
14.8008
566
14.8067
545
14.8126
598
14.8185
584
14.8244
580
14.8303
612
14.8362
633
14.8421
641
14.848
619
14.8539
621
14.8598
634
14.8657
594
14.8716
594
14.8775
639
14.8834
618
14.8893
636
14.8952
600
14.9011
602
14.907
627
14.9129
624
14.9188
646
14.9247
677
14.9306
667
14.9365
667
14.9424
650
14.9483
676
14.9542
700
14.9601
717
14.966
674
14.9719
720
14.9778
774
14.9837
780
14.9896
759
14.9955
723
15.0014
723
15.0073
717
15.0132
702
15.0191
703
15.025
688
15.0309
700
15.0368
716
15.0427
729
15.0487
805
15.0546
742
15.0605
744
15.0664
818
15.0723
788
15.0782
809
15.0841
808
15.09
787
15.0959
841
15.1018
830
15.1077
844
15.1136
807
15.1195
755
15.1254
741
15.1313
717
15.1372
637
15.1431
610
15.149
616
15.1549
551
15.1608
568
15.1667
576
15.1726
859
15.1785
1815
15.1844
3018
15.1903
3041
15.1962
2567
15.2021
689
15.208
316
15.2139
250
15.2198
256
15.2257
215
15.2316
226
15.2375
243
15.2434
233
15.2493
233
15.2552
240
15.2611
238
15.267
239
15.2729
221
15.2788
258
15.2847
252
15.2906
222
15.2965
203
15.3024
212
15.3083
211
15.3143
222
15.3202
230
15.3261
252
15.332
242
15.3379
235
15.3438
319
15.3497
551
15.3556
653
15.3615
496
15.3674
781
15.3733
525
15.3792
161
15.3851
114
15.391
115
15.3969
110
15.4028
100
15.4087
99
15.4146
75
15.4205
53
15.4264
63
15.4323
53
15.4382
42
15.4441
44
15.45
98
15.4559
174
15.4618
233
15.4677
229
15.4736
98
15.4795
14
15.4854
4
15.4913
2
15.4972
0
15.5031
1
15.509
0
15.5149
0
15.5208
I3d
AK_control
2020
9
9
14
52
56
2
43
Casa Info Follows
0
0
0
0
Creation
Created by : DESKTOP-MI6NA2R\kratos
Date created : 09/09/2020 14:52
Computer : DESKTOP-MI6NA2R
Location
Location ID : AK_control
Sample : AK_control
Description : (25.507,20.108,-3.910)mm
Tilt : 0.00
Charge Neutraliser : Off
Settings
Excitation
Mode : XPS - monochromatic
Tuning : Spectroscopy
Emission current : 10.00mA
Anode library : Al
ESCA modes
Collimation : Slot
Lens : Hybrid
Resolution : 40.00
Scan
Deflection : (0.000, 0.000)mm
I3d : 851.690-871.690eV, Sweeps 2
Start : 851.690eV
End : 871.690eV
Centre : 861.690eV
Width : 20.000eV
Step size : 0.200eV
Number Steps : 100
Dwell time : 594ms
Sweep time : 60s
Sweeps : 2
Target quality : 200
Instrument Conditions
Work function : -4.50
Acquisition Conditions
X-ray Power : 150.00W
Quality : 123.76
XPS
3
25.5065
20.1084
-3.9102
Al (mono)
1486.69
150
1e+037
1e+037
1e+037
1e+037
FAT
40
1e+037
-4.5
1e+037
1e+037
1e+037
1e+037
1e+037
I3d

-1
Kinetic energy
eV
851.69
0.2
2
Intensity
d
Transmission
d
pulse counting
0.59387
2
0
1e+037
1e+037
1e+037
0
202
30594
503435
2.21742
2.22459
84957
2.22459
84747
2.22452
84478
2.22444
84532
2.22437
84527
2.22429
84447
2.22421
84871
2.22414
84978
2.22406
85512
2.22399
86530
2.22391
88314
2.22384
91661
2.22376
97089
2.22369
107178
2.22361
125472
2.22353
157830
2.22346
209501
2.22338
280455
2.22331
353701
2.22323
396976
2.22316
383928
2.22308
322878
2.22301
241760
2.22293
172531
2.22285
127712
2.22278
102472
2.2227
88974
2.22263
81313
2.22255
75741
2.22248
72272
2.2224
69498
2.22233
67111
2.22225
65773
2.22217
64731
2.2221
63823
2.22202
63041
2.22195
62430
2.22187
61774
2.2218
60995
2.22172
59812
2.22165
58521
2.22157
57379
2.22149
55912
2.22142
55000
2.22134
53917
2.22127
53373
2.22119
53044
2.22112
52758
2.22104
52314
2.22097
51756
2.22089
51876
2.22081
51498
2.22074
50992
2.22066
51222
2.22059
50685
2.22051
50108
2.22044
49790
2.22036
49501
2.22029
49146
2.22021
48688
2.22013
48056
2.22006
48072
2.21998
48009
2.21991
47524
2.21983
47565
2.21976
48136
2.21968
49190
2.21961
51336
2.21953
55557
2.21946
62521
2.21938
74552
2.2193
95867
2.21923
134061
2.21915
197903
2.21908
290886
2.219
399804
2.21893
484834
2.21885
503435
2.21878
441056
2.2187
331139
2.21862
222952
2.21855
144614
2.21847
98488
2.2184
72996
2.21832
59225
2.21825
51120
2.21817
46064
2.2181
42673
2.21802
39812
2.21794
38154
2.21787
36849
2.21779
35580
2.21772
34543
2.21766
33559
2.21763
32863
2.2176
32511
2.21757
31881
2.21754
31434
2.21751
31036
2.21748
31164
2.21745
30594
2.21742
Pb4f
AK_control
2020
9
9
14
52
56
2
43
Casa Info Follows
0
0
0
0
Creation
Created by : DESKTOP-MI6NA2R\kratos
Date created : 09/09/2020 14:52
Computer : DESKTOP-MI6NA2R
Location
Location ID : AK_control
Sample : AK_control
Description : (25.507,20.108,-3.910)mm
Tilt : 0.00
Charge Neutraliser : Off
Settings
Excitation
Mode : XPS - monochromatic
Tuning : Spectroscopy
Emission current : 10.00mA
Anode library : Al
ESCA modes
Collimation : Slot
Lens : Hybrid
Resolution : 40.00
Scan
Deflection : (0.000, 0.000)mm
Pb4f : 1336.690-1356.690eV, Sweeps 2
Start : 1336.690eV
End : 1356.690eV
Centre : 1346.690eV
Width : 20.000eV
Step size : 0.200eV
Number Steps : 100
Dwell time : 594ms
Sweep time : 60s
Sweeps : 2
Target quality : 200
Instrument Conditions
Work function : -4.50
Acquisition Conditions
X-ray Power : 150.00W
Quality : 90.30
XPS
4
25.5065
20.1084
-3.9102
Al (mono)
1486.69
150
1e+037
1e+037
1e+037
1e+037
FAT
40
1e+037
-4.5
1e+037
1e+037
1e+037
1e+037
1e+037
Pb4f

-1
Kinetic energy
eV
1336.69
0.2
2
Intensity
d
Transmission
d
pulse counting
0.59387
2
0
1e+037
1e+037
1e+037
0
202
13403
157183
2.11422
2.1278
31169
2.1278
30912
2.12766
30999
2.12752
31033
2.12738
30760
2.12724
30412
2.1271
29894
2.12696
29842
2.12681
29364
2.12667
29119
2.12653
28807
2.12639
28710
2.12625
28794
2.12611
28688
2.12597
28794
2.12583
28771
2.12569
28912
2.12554
29464
2.1254
29719
2.12526
29840
2.12512
29968
2.12498
30515
2.12484
30383
2.1247
30652
2.12456
31182
2.12442
32671
2.12427
35563
2.12413
41835
2.12399
54164
2.12385
75259
2.12371
104247
2.12357
128106
2.12343
129368
2.12329
105465
2.12315
72669
2.12301
48598
2.12286
36390
2.12272
31682
2.12258
30432
2.12244
31504
2.1223
32413
2.12216
31086
2.12202
27652
2.12188
24460
2.12174
22843
2.12159
22386
2.12145
22572
2.12131
22801
2.12117
23506
2.12103
24944
2.12089
27770
2.12075
33657
2.12061
46522
2.12047
70446
2.12032
106403
2.12018
144106
2.12004
157183
2.1199
133175
2.11976
90718
2.11962
54939
2.11948
35317
2.11934
27646
2.1192
25616
2.11905
26775
2.11891
28889
2.11877
28828
2.11863
25035
2.11849
20335
2.11835
17532
2.11821
16258
2.11807
15850
2.11793
15545
2.11778
15060
2.11764
15000
2.1175
14959
2.11736
14823
2.11722
14518
2.11708
14479
2.11694
14360
2.1168
14302
2.11666
14186
2.11652
14196
2.11637
14234
2.11623
14195
2.11609
14139
2.11595
14183
2.11581
14163
2.11567
13969
2.11553
13915
2.11539
13953
2.11525
13872
2.1151
13630
2.11496
13781
2.11482
13805
2.11468
13650
2.11454
13663
2.1144
13675
2.11426
13590
2.11422
13511
2.11432
13403
2.11442
13577
2.11452
O1s
AK_control
2020
9
9
14
52
56
2
43
Casa Info Follows
0
0
0
0
Creation
Created by : DESKTOP-MI6NA2R\kratos
Date created : 09/09/2020 14:52
Computer : DESKTOP-MI6NA2R
Location
Location ID : AK_control
Sample : AK_control
Description : (25.507,20.108,-3.910)mm
Tilt : 0.00
Charge Neutraliser : Off
Settings
Excitation
Mode : XPS - monochromatic
Tuning : Spectroscopy
Emission current : 10.00mA
Anode library : Al
ESCA modes
Collimation : Slot
Lens : Hybrid
Resolution : 40.00
Scan
Deflection : (0.000, 0.000)mm
O1s : 943.690-963.690eV, Sweeps 4
Start : 943.690eV
End : 963.690eV
Centre : 953.690eV
Width : 20.000eV
Step size : 0.200eV
Number Steps : 100
Dwell time : 594ms
Sweep time : 60s
Sweeps : 4
Target quality : 200
Instrument Conditions
Work function : -4.50
Acquisition Conditions
X-ray Power : 150.00W
Quality : 21.05
XPS
5
25.5065
20.1084
-3.9102
Al (mono)
1486.69
150
1e+037
1e+037
1e+037
1e+037
FAT
40
1e+037
-4.5
1e+037
1e+037
1e+037
1e+037
1e+037
O1s

-1
Kinetic energy
eV
943.69
0.2
2
Intensity
d
Transmission
d
pulse counting
0.59387
4
0
1e+037
1e+037
1e+037
0
202
59772
63394
2.19692
2.20238
60018
2.20238
60355
2.20232
60241
2.20227
59785
2.20221
60391
2.20216
60198
2.2021
59778
2.20205
60028
2.20199
59842
2.20194
60124
2.20188
60013
2.20183
60190
2.20178
59772
2.20172
59955
2.20167
60308
2.20161
60283
2.20156
60269
2.2015
60237
2.20145
60052
2.20139
60480
2.20134
60591
2.20128
60028
2.20123
60241
2.20117
60257
2.20112
60069
2.20107
60228
2.20101
60517
2.20096
60652
2.2009
60721
2.20085
60383
2.20079
60060
2.20074
60479
2.20068
60686
2.20063
60830
2.20057
60605
2.20052
60533
2.20046
60558
2.20041
60732
2.20036
60737
2.2003
60892
2.20025
60623
2.20019
61426
2.20014
62120
2.20008
62448
2.20003
62441
2.19997
62422
2.19992
62735
2.19986
63254
2.19981
62973
2.19975
63286
2.1997
63394
2.19965
62951
2.19959
62433
2.19954
62128
2.19948
61916
2.19943
61254
2.19937
61136
2.19932
61213
2.19926
61049
2.19921
60834
2.19915
61043
2.1991
60808
2.19905
61051
2.19899
61093
2.19894
61326
2.19888
60734
2.19883
60925
2.19877
61223
2.19872
61258
2.19866
60892
2.19861
60723
2.19855
60860
2.1985
60730
2.19844
60900
2.19839
60729
2.19834
60584
2.19828
60976
2.19823
61227
2.19817
61292
2.19812
61113
2.19806
61136
2.19801
61016
2.19795
61530
2.1979
60968
2.19784
61083
2.19779
61169
2.19773
61068
2.19768
61378
2.19763
61098
2.19757
61410
2.19752
61494
2.19746
61187
2.19741
61287
2.19735
61413
2.1973
61367
2.19724
61377
2.19719
61338
2.19713
61758
2.19708
61635
2.19702
61348
2.19697
61500
2.19692
N1s
AK_control
2020
9
9
14
52
56
2
43
Casa Info Follows
0
0
0
0
Creation
Created by : DESKTOP-MI6NA2R\kratos
Date created : 09/09/2020 14:52
Computer : DESKTOP-MI6NA2R
Location
Location ID : AK_control
Sample : AK_control
Description : (25.507,20.108,-3.910)mm
Tilt : 0.00
Charge Neutraliser : Off
Settings
Excitation
Mode : XPS - monochromatic
Tuning : Spectroscopy
Emission current : 10.00mA
Anode library : Al
ESCA modes
Collimation : Slot
Lens : Hybrid
Resolution : 40.00
Scan
Deflection : (0.000, 0.000)mm
N1s : 1076.690-1096.690eV, Sweeps 4
Start : 1076.690eV
End : 1096.690eV
Centre : 1086.690eV
Width : 20.000eV
Step size : 0.200eV
Number Steps : 100
Dwell time : 594ms
Sweep time : 60s
Sweeps : 4
Target quality : 200
Instrument Conditions
Work function : -4.50
Acquisition Conditions
X-ray Power : 150.00W
Quality : 123.58
XPS
6
25.5065
20.1084
-3.9102
Al (mono)
1486.69
150
1e+037
1e+037
1e+037
1e+037
FAT
40
1e+037
-4.5
1e+037
1e+037
1e+037
1e+037
1e+037
N1s

-1
Kinetic energy
eV
1076.69
0.2
2
Intensity
d
Transmission
d
pulse counting
0.59387
4
0
1e+037
1e+037
1e+037
0
202
42865
78692
2.17079
2.17314
60907
2.17079
59923
2.17081
58516
2.17083
58115
2.17086
57064
2.17088
56275
2.1709
55493
2.17093
54682
2.17095
53807
2.17097
52812
2.171
52118
2.17102
51435
2.17104
51446
2.17107
50706
2.17109
50197
2.17112
49707
2.17114
49548
2.17116
48674
2.17119
48727
2.17121
48376
2.17123
48355
2.17126
48031
2.17128
47841
2.1713
47563
2.17133
47282
2.17135
47154
2.17137
47093
2.1714
47014
2.17142
46634
2.17144
46523
2.17147
46698
2.17149
46384
2.17151
46357
2.17154
46122
2.17156
46057
2.17159
46142
2.17161
46321
2.17163
46514
2.17166
46973
2.17168
48307
2.1717
51005
2.17173
55728
2.17175
61584
2.17177
68659
2.1718
75917
2.17182
78692
2.17184
75628
2.17187
66760
2.17189
57319
2.17191
50532
2.17194
47182
2.17196
46098
2.17199
44934
2.17201
44583
2.17203
44540
2.17206
44309
2.17208
44096
2.1721
43808
2.17213
44226
2.17215
43825
2.17217
43724
2.1722
43680
2.17222
43790
2.17224
43961
2.17227
43937
2.17229
43650
2.17231
43213
2.17234
43668
2.17236
43693
2.17238
43636
2.17241
43167
2.17243
43539
2.17246
43673
2.17248
43376
2.1725
43564
2.17253
43403
2.17255
43320
2.17257
43105
2.1726
43456
2.17262
43432
2.17264
43423
2.17267
43361
2.17269
43328
2.17271
43497
2.17274
43516
2.17276
43336
2.17278
43241
2.17281
43467
2.17283
43397
2.17285
43133
2.17288
43149
2.1729
43192
2.17293
43349
2.17295
42865
2.17297
43235
2.173
43240
2.17302
43161
2.17304
43197
2.17307
42879
2.17309
43334
2.17311
43467
2.17314
C 1s
AK_control
2020
9
9
14
52
56
2
43
Casa Info Follows
0
0
0
0
Creation
Created by : DESKTOP-MI6NA2R\kratos
Date created : 09/09/2020 14:52
Computer : DESKTOP-MI6NA2R
Location
Location ID : AK_control
Sample : AK_control
Description : (25.507,20.108,-3.910)mm
Tilt : 0.00
Charge Neutraliser : Off
Settings
Excitation
Mode : XPS - monochromatic
Tuning : Spectroscopy
Emission current : 10.00mA
Anode library : Al
ESCA modes
Collimation : Slot
Lens : Hybrid
Resolution : 40.00
Scan
Deflection : (0.000, 0.000)mm
C 1s : 1186.690-1206.690eV, Sweeps 4
Start : 1186.690eV
End : 1206.690eV
Centre : 1196.690eV
Width : 20.000eV
Step size : 0.200eV
Number Steps : 100
Dwell time : 594ms
Sweep time : 60s
Sweeps : 4
Target quality : 200
Instrument Conditions
Work function : -4.50
Acquisition Conditions
X-ray Power : 150.00W
Quality : 57.70
XPS
7
25.5065
20.1084
-3.9102
Al (mono)
1486.69
150
1e+037
1e+037
1e+037
1e+037
FAT
40
1e+037
-4.5
1e+037
1e+037
1e+037
1e+037
1e+037
C
1s
-1
Kinetic energy
eV
1186.69
0.2
2
Intensity
d
Transmission
d
pulse counting
0.593895
4
0
1e+037
1e+037
1e+037
0
202
47017
57772
2.14722
2.15025
47358
2.14817
47072
2.14811
47121
2.14805
47461
2.148
47223
2.14794
47017
2.14788
47644
2.14782
47534
2.14776
47229
2.1477
47582
2.14764
47499
2.14759
47801
2.14753
47944
2.14747
48153
2.14741
47670
2.14735
47827
2.14729
47659
2.14724
47660
2.14722
47558
2.14726
47386
2.14729
47486
2.14733
47493
2.14737
47435
2.1474
47165
2.14744
47410
2.14748
47355
2.14751
47324
2.14755
47332
2.14758
47201
2.14762
47452
2.14766
47440
2.14769
47372
2.14773
47343
2.14777
47603
2.1478
47696
2.14784
47344
2.14788
47475
2.14791
47539
2.14795
47577
2.14799
47636
2.14802
47533
2.14806
47655
2.1481
47707
2.14813
47090
2.14817
47421
2.1482
47947
2.14824
47783
2.14828
47958
2.14831
48297
2.14835
48646
2.14839
49144
2.14842
49528
2.14846
50338
2.1485
51720
2.14853
53786
2.14857
56056
2.14861
57772
2.14864
57312
2.14868
54770
2.14872
51953
2.14875
50060
2.14879
48979
2.14882
48909
2.14886
49324
2.1489
49653
2.14893
49484
2.14897
49589
2.14901
49528
2.14904
49474
2.14908
49660
2.14912
50199
2.14915
50884
2.14919
51932
2.14923
51883
2.14926
52428
2.1493
52209
2.14934
50998
2.14937
50341
2.14941
49322
2.14944
48388
2.14948
47945
2.14952
47718
2.14955
47534
2.14959
47440
2.14963
47594
2.14966
47331
2.1497
47698
2.14974
47805
2.14977
47479
2.14981
47663
2.14985
47657
2.14988
47673
2.14992
47580
2.14996
47395
2.14999
47184
2.15003
47625
2.15007
47755
2.1501
47726
2.15014
47400
2.15017
47445
2.15021
47707
2.15025
S 2p
AK_control
2020
9
9
14
52
56
2
43
Casa Info Follows
0
0
0
0
Creation
Created by : DESKTOP-MI6NA2R\kratos
Date created : 09/09/2020 14:52
Computer : DESKTOP-MI6NA2R
Location
Location ID : AK_control
Sample : AK_control
Description : (25.507,20.108,-3.910)mm
Tilt : 0.00
Charge Neutraliser : Off
Settings
Excitation
Mode : XPS - monochromatic
Tuning : Spectroscopy
Emission current : 10.00mA
Anode library : Al
ESCA modes
Collimation : Slot
Lens : Hybrid
Resolution : 40.00
Scan
Deflection : (0.000, 0.000)mm
S 2p : 1311.690-1331.690eV, Sweeps 4
Start : 1311.690eV
End : 1331.690eV
Centre : 1321.690eV
Width : 20.000eV
Step size : 0.200eV
Number Steps : 100
Dwell time : 594ms
Sweep time : 60s
Sweeps : 4
Target quality : 200
Instrument Conditions
Work function : -4.50
Acquisition Conditions
X-ray Power : 150.00W
Quality : 68.47
XPS
8
25.5065
20.1084
-3.9102
Al (mono)
1486.69
150
1e+037
1e+037
1e+037
1e+037
FAT
40
1e+037
-4.5
1e+037
1e+037
1e+037
1e+037
1e+037
S
2p
-1
Kinetic energy
eV
1311.69
0.2
2
Intensity
d
Transmission
d
pulse counting
0.59387
4
0
1e+037
1e+037
1e+037
0
202
55091
66342
2.13133
2.14544
55111
2.14544
55091
2.1453
55336
2.14516
55371
2.14501
55272
2.14487
55389
2.14473
55119
2.14459
55497
2.14445
55644
2.14431
55901
2.14417
55593
2.14403
55780
2.14389
55476
2.14374
55183
2.1436
56197
2.14346
55962
2.14332
56091
2.14318
56040
2.14304
56110
2.1429
56247
2.14276
56377
2.14262
56469
2.14248
56321
2.14233
56558
2.14219
56422
2.14205
56792
2.14191
56960
2.14177
56968
2.14163
57149
2.14149
57260
2.14135
57150
2.14121
57250
2.14106
57488
2.14092
57781
2.14078
57948
2.14064
58137
2.1405
58447
2.14036
58536
2.14022
58393
2.14008
59048
2.13994
59104
2.13979
59419
2.13965
59518
2.13951
60176
2.13937
60410
2.13923
60468
2.13909
60330
2.13895
60310
2.13881
60488
2.13867
60418
2.13852
60493
2.13838
60591
2.13824
60977
2.1381
61068
2.13796
60937
2.13782
61635
2.13768
61423
2.13754
61598
2.1374
62002
2.13725
61676
2.13711
62003
2.13697
62431
2.13683
62723
2.13669
63019
2.13655
63528
2.13641
64357
2.13627
64359
2.13613
64132
2.13599
64754
2.13584
65214
2.1357
65572
2.13556
65241
2.13542
64768
2.13528
64582
2.13514
65256
2.135
65270
2.13486
65667
2.13472
65890
2.13457
65557
2.13443
65265
2.13429
65195
2.13415
65269
2.13401
65555
2.13387
65922
2.13373
65783
2.13359
65600
2.13345
65859
2.1333
66342
2.13316
66030
2.13302
66025
2.13288
66244
2.13274
65840
2.1326
65636
2.13246
65732
2.13232
65497
2.13218
65291
2.13203
65366
2.13189
64854
2.13175
65086
2.13161
65187
2.13147
64967
2.13133
VBM
AK_control
2020
9
9
15
40
1
2
38
Casa Info Follows
0
0
0
0
Creation
Created by : DESKTOP-MI6NA2R\kratos
Date created : 09/09/2020 15:40
Computer : DESKTOP-MI6NA2R
Location
Location ID : AK_control
Sample : AK_control
Description : (25.507,20.108,-3.910)mm
Tilt : 0.00
Charge Neutraliser : Off
Settings
Excitation
Mode : UPS
Tuning : HeI
ESCA modes
Collimation : Slot
Lens : UPS
Resolution : 10.00
Scan
Deflection : (0.000, 0.000)mm
HeI : 15.220-22.220eV, Sweeps 1
Start : 15.220eV
End : 22.220eV
Centre : 18.720eV
Width : 7.000eV
Step size : 0.025eV
Number Steps : 280
Dwell time : 214ms
Sweep time : 60s
Sweeps : 1
Instrument Conditions
Work function : -4.50
Sample bias : 9.11
XPS
9
25.5065
20.1084
-3.9102
Not specified
21.22
1e+037
1e+037
1e+037
1e+037
1e+037
FAT
10
1e+037
-4.5
9.11
1e+037
1e+037
1e+037
1e+037
HeI VBM

-1
Kinetic energy
eV
15.22
0.025
2
Intensity
d
Transmission
d
pulse counting
0.213523
1
0
1e+037
1e+037
1e+037
0
562
0
10062
1
1
7761
1
7826
1
8130
1
8229
1
8309
1
8328
1
8666
1
8721
1
8988
1
8950
1
9104
1
9225
1
9358
1
9475
1
9566
1
9624
1
9735
1
9731
1
9922
1
9732
1
9899
1
9882
1
9874
1
9932
1
9998
1
9956
1
10013
1
9957
1
9904
1
10062
1
10057
1
9955
1
9834
1
9772
1
9924
1
9841
1
9877
1
9685
1
9513
1
9607
1
9748
1
9555
1
9402
1
9355
1
9603
1
9371
1
9091
1
9142
1
9206
1
9124
1
9021
1
8931
1
8863
1
8852
1
8641
1
8532
1
8372
1
8218
1
8224
1
8137
1
8002
1
7913
1
8059
1
7840
1
7899
1
8108
1
7840
1
7832
1
7719
1
7640
1
7802
1
7913
1
7891
1
7938
1
7956
1
8030
1
8025
1
7990
1
8042
1
8197
1
8182
1
8141
1
8226
1
8334
1
8314
1
8300
1
8274
1
8384
1
8263
1
8379
1
8450
1
8366
1
8343
1
8348
1
8405
1
8332
1
8245
1
8255
1
8204
1
8090
1
8154
1
8020
1
7970
1
7947
1
7822
1
7678
1
7614
1
7661
1
7622
1
7521
1
7327
1
7146
1
7046
1
6904
1
6712
1
6684
1
6503
1
6387
1
6309
1
6076
1
6043
1
5873
1
5775
1
5667
1
5375
1
5283
1
5176
1
5024
1
4877
1
4772
1
4679
1
4513
1
4352
1
4287
1
4156
1
4133
1
3990
1
3896
1
3783
1
3660
1
3608
1
3416
1
3369
1
3332
1
3174
1
3091
1
2964
1
2818
1
2589
1
2542
1
2354
1
2213
1
1999
1
1882
1
1758
1
1580
1
1450
1
1337
1
1245
1
1130
1
958
1
874
1
827
1
708
1
631
1
545
1
496
1
426
1
361
1
336
1
327
1
272
1
257
1
231
1
181
1
157
1
156
1
147
1
131
1
137
1
118
1
113
1
112
1
103
1
94
1
91
1
91
1
91
1
96
1
83
1
75
1
84
1
88
1
83
1
68
1
81
1
74
1
68
1
70
1
65
1
65
1
57
1
53
1
53
1
64
1
67
1
65
1
55
1
65
1
56
1
53
1
58
1
47
1
41
1
52
1
40
1
44
1
59
1
38
1
49
1
42
1
40
1
42
1
40
1
50
1
45
1
31
1
38
1
34
1
30
1
28
1
34
1
25
1
32
1
36
1
25
1
22
1
29
1
25
1
24
1
15
1
14
1
10
1
14
1
12
1
9
1
7
1
9
1
13
1
4
1
9
1
6
1
6
1
4
1
4
1
5
1
3
1
4
1
4
1
3
1
5
1
3
1
3
1
3
1
10
1
6
1
1
1
1
1
3
1
1
1
2
1
7
1
1
1
0
1
1
1
1
1
2
1
0
1
1
1
1
1
1
1
SECO
AK_control
2020
9
9
15
50
4
2
38
Casa Info Follows
0
0
0
0
Creation
Created by : DESKTOP-MI6NA2R\kratos
Date created : 09/09/2020 15:50
Computer : DESKTOP-MI6NA2R
Location
Location ID : AK_control
Sample : AK_control
Description : (25.507,20.108,-3.910)mm
Tilt : 0.00
Charge Neutraliser : Off
Settings
Excitation
Mode : UPS
Tuning : HeI
ESCA modes
Collimation : 55 um Aperture
Lens : UPS
Resolution : 10.00
Scan
Deflection : (0.000, 0.000)mm
HeI : 1.220-24.220eV, Sweeps 1
Start : 1.220eV
End : 24.220eV
Centre : 12.720eV
Width : 23.000eV
Step size : 0.025eV
Number Steps : 920
Dwell time : 65ms
Sweep time : 60s
Sweeps : 1
Instrument Conditions
Work function : -4.50
Sample bias : 9.11
XPS
10
25.5065
20.1084
-3.9102
Not specified
21.22
1e+037
1e+037
1e+037
1e+037
1e+037
FAT
10
1e+037
-4.5
9.11
1e+037
1e+037
1e+037
1e+037
HeI SECO

-1
Kinetic energy
eV
1.22
0.025
2
Intensity
d
Transmission
d
pulse counting
0.065147
1
0
1e+037
1e+037
1e+037
0
1842
0
1742
1
1
3
1
4
1
5
1
1
1
3
1
7
1
6
1
6
1
2
1
4
1
2
1
2
1
2
1
2
1
4
1
2
1
3
1
1
1
0
1
2
1
5
1
3
1
2
1
3
1
1
1
0
1
1
1
3
1
3
1
3
1
2
1
1
1
1
1
3
1
2
1
3
1
4
1
2
1
1
1
5
1
3
1
5
1
3
1
3
1
6
1
6
1
3
1
3
1
3
1
5
1
2
1
4
1
3
1
2
1
4
1
2
1
7
1
7
1
1
1
3
1
5
1
3
1
3
1
9
1
6
1
3
1
5
1
6
1
9
1
10
1
8
1
10
1
11
1
6
1
7
1
6
1
9
1
8
1
9
1
11
1
8
1
9
1
13
1
10
1
11
1
12
1
5
1
7
1
15
1
12
1
15
1
17
1
10
1
13
1
17
1
11
1
12
1
12
1
13
1
15
1
13
1
11
1
18
1
16
1
14
1
21
1
25
1
26
1
14
1
15
1
24
1
21
1
29
1
32
1
36
1
57
1
82
1
116
1
167
1
246
1
387
1
673
1
1014
1
1357
1
1517
1
1648
1
1694
1
1742
1
1697
1
1666
1
1668
1
1624
1
1612
1
1564
1
1500
1
1531
1
1524
1
1483
1
1458
1
1483
1
1398
1
1392
1
1379
1
1320
1
1277
1
1262
1
1250
1
1199
1
1209
1
1187
1
1181
1
1145
1
1148
1
1050
1
1029
1
1035
1
1029
1
952
1
961
1
1009
1
1006
1
965
1
969
1
938
1
924
1
889
1
901
1
896
1
948
1
906
1
894
1
856
1
852
1
866
1
867
1
883
1
848
1
817
1
826
1
815
1
827
1
807
1
774
1
744
1
762
1
764
1
789
1
781
1
722
1
772
1
739
1
734
1
730
1
728
1
723
1
699
1
684
1
704
1
685
1
692
1
698
1
654
1
668
1
668
1
646
1
678
1
647
1
604
1
640
1
672
1
620
1
613
1
640
1
588
1
643
1
614
1
632
1
620
1
601
1
594
1
600
1
623
1
596
1
607
1
571
1
564
1
538
1
535
1
537
1
548
1
551
1
512
1
536
1
538
1
514
1
524
1
491
1
514
1
506
1
515
1
477
1
489
1
548
1
477
1
507
1
478
1
481
1
473
1
460
1
498
1
460
1
448
1
446
1
462
1
478
1
446
1
406
1
431
1
423
1
436
1
421
1
394
1
379
1
388
1
393
1
396
1
403
1
374
1
388
1
364
1
352
1
349
1
326
1
335
1
339
1
352
1
331
1
325
1
335
1
292
1
273
1
291
1
283
1
310
1
305
1
292
1
295
1
282
1
275
1
255
1
278
1
287
1
262
1
256
1
259
1
258
1
234
1
238
1
246
1
245
1
226
1
230
1
236
1
244
1
211
1
215
1
224
1
224
1
252
1
224
1
209
1
219
1
212
1
202
1
212
1
198
1
202
1
186
1
194
1
209
1
187
1
195
1
204
1
200
1
190
1
207
1
197
1
193
1
209
1
189
1
195
1
213
1
182
1
184
1
185
1
194
1
174
1
181
1
175
1
186
1
175
1
172
1
165
1
187
1
170
1
152
1
149
1
182
1
140
1
154
1
172
1
170
1
160
1
166
1
159
1
163
1
165
1
154
1
162
1
153
1
148
1
150
1
148
1
158
1
159
1
145
1
125
1
139
1
133
1
122
1
133
1
141
1
134
1
141
1
121
1
137
1
134
1
144
1
137
1
141
1
146
1
137
1
135
1
127
1
132
1
130
1
117
1
114
1
118
1
149
1
136
1
127
1
121
1
119
1
122
1
140
1
121
1
129
1
127
1
136
1
148
1
125
1
129
1
131
1
127
1
139
1
121
1
140
1
119
1
130
1
136
1
117
1
128
1
135
1
131
1
123
1
137
1
135
1
119
1
127
1
108
1
118
1
137
1
126
1
116
1
104
1
108
1
105
1
128
1
122
1
108
1
115
1
126
1
123
1
113
1
119
1
139
1
137
1
119
1
115
1
109
1
116
1
116
1
111
1
108
1
89
1
111
1
92
1
102
1
119
1
101
1
103
1
101
1
89
1
119
1
102
1
95
1
101
1
92
1
99
1
87
1
88
1
100
1
86
1
116
1
99
1
89
1
84
1
99
1
106
1
93
1
102
1
93
1
94
1
106
1
104
1
90
1
89
1
89
1
109
1
88
1
80
1
86
1
88
1
80
1
83
1
86
1
80
1
71
1
76
1
80
1
86
1
98
1
78
1
75
1
78
1
74
1
84
1
80
1
89
1
70
1
66
1
59
1
79
1
75
1
74
1
90
1
65
1
66
1
73
1
73
1
60
1
64
1
66
1
63
1
72
1
74
1
76
1
70
1
58
1
64
1
59
1
64
1
67
1
68
1
70
1
59
1
70
1
73
1
69
1
64
1
72
1
59
1
57
1
68
1
77
1
72
1
67
1
73
1
80
1
68
1
68
1
53
1
64
1
77
1
61
1
60
1
68
1
75
1
60
1
69
1
70
1
67
1
74
1
68
1
70
1
59
1
60
1
60
1
62
1
75
1
77
1
91
1
79
1
79
1
78
1
77
1
92
1
96
1
84
1
89
1
87
1
97
1
96
1
102
1
95
1
99
1
107
1
94
1
105
1
96
1
92
1
94
1
113
1
117
1
102
1
95
1
94
1
90
1
92
1
99
1
103
1
113
1
106
1
98
1
95
1
87
1
100
1
108
1
102
1
102
1
71
1
77
1
96
1
97
1
96
1
102
1
107
1
103
1
84
1
97
1
106
1
94
1
88
1
85
1
86
1
90
1
80
1
83
1
89
1
87
1
81
1
85
1
81
1
80
1
77
1
81
1
82
1
81
1
83
1
77
1
90
1
85
1
76
1
82
1
82
1
89
1
78
1
87
1
87
1
91
1
82
1
84
1
85
1
82
1
105
1
107
1
91
1
87
1
85
1
89
1
90
1
92
1
81
1
99
1
80
1
95
1
104
1
97
1
88
1
90
1
90
1
96
1
95
1
87
1
79
1
76
1
91
1
77
1
72
1
88
1
90
1
80
1
76
1
85
1
71
1
74
1
77
1
73
1
78
1
65
1
61
1
69
1
61
1
65
1
70
1
63
1
71
1
60
1
51
1
45
1
60
1
40
1
52
1
52
1
41
1
46
1
41
1
37
1
44
1
43
1
33
1
48
1
38
1
24
1
34
1
36
1
27
1
26
1
26
1
22
1
30
1
21
1
28
1
29
1
22
1
21
1
12
1
13
1
8
1
11
1
10
1
5
1
8
1
8
1
11
1
9
1
4
1
4
1
5
1
5
1
5
1
3
1
3
1
2
1
2
1
2
1
0
1
1
1
2
1
1
1
0
1
0
1
0
1
0
1
1
1
0
1
1
1
1
1
1
1
0
1
1
1
2
1
2
1
0
1
1
1
0
1
0
1
1
1
1
1
1
1
0
1
0
1
0
1
0
1
0
1
0
1
1
1
1
1
1
1
1
1
1
1
0
1
0
1
0
1
1
1
0
1
0
1
1
1
0
1
0
1
0
1
0
1
0
1
0
1
0
1
0
1
0
1
0
1
0
1
0
1
0
1
0
1
0
1
0
1
0
1
0
1
0
1
0
1
0
1
0
1
0
1
0
1
0
1
0
1
0
1
0
1
0
1
0
1
0
1
1
1
0
1
0
1
0
1
0
1
0
1
0
1
0
1
0
1
0
1
0
1
0
1
0
1
0
1
0
1
0
1
0
1
0
1
0
1
0
1
0
1
0
1
0
1
0
1
0
1
0
1
0
1
0
1
0
1
0
1
0
1
0
1
0
1
0
1
0
1
0
1
0
1
0
1
0
1
0
1
0
1
0
1
0
1
0
1
0
1
0
1
0
1
0
1
0
1
0
1
0
1
0
1
0
1
0
1
0
1
0
1
0
1
0
1
0
1
0
1
0
1
0
1
0
1
0
1
0
1
0
1
0
1
0
1
0
1
0
1
0
1
0
1
0
1
0
1
0
1
0
1
0
1
0
1
0
1
0
1
0
1
0
1
0
1
0
1
0
1
0
1
0
1
0
1
0
1
0
1
0
1
0
1
0
1
0
1
0
1
0
1
0
1
0
1
0
1
0
1
0
1
0
1
0
1
0
1
0
1
0
1
0
1
0
1
0
1
0
1
0
1
end of experiment
